File: src/zuy/data/19.msa
#FORMAT      : EMSA/MAS Spectral Data File
#VERSION     : 1.0
#TITLE       : 19
#DATE        : 02-FEB-2022
#TIME        : 16:21
#OWNER       :
#NPOINTS     : 2048.0
#NCOLUMNS    : 1.0
#XUNITS      : keV
#YUNITS      : counts
#DATATYPE    : XY
#XPERCHAN    : 0.01
#OFFSET      : -0.2
#SIGNALTYPE  : EDS_SEM
#CHOFFSET    : 20.0
#LIVETIME    : 20.0
#REALTIME    : 23.9437
#BEAMKV      : 20.0
#PROBECUR    : 1.386081
#MAGCAM      : 299.0
#XTILTSTGE   : 0.0
#AZIMANGLE   : 0.0
#ELEVANGLE   : 35.0
#XPOSITION mm: -10.3467
#YPOSITION mm: -9.5703
#ZPOSITION mm: 12.0498
##OXINSTPT   : 5
##OXINSTSTROB: 37.22
##OXINSTNDET : 1
##OXINSTELEMS: 6,8,16,20
##OXINSTLABEL: 6, 0.277, C K?1,2
##OXINSTLABEL: 8, 0.525, O K?1
##OXINSTLABEL: 16, 2.308, S K?1
##OXINSTLABEL: 16, 2.464, S K?1
##OXINSTLABEL: 20, 0.303, Ca Ll
##OXINSTLABEL: 20, 3.692, Ca K?1
##OXINSTLABEL: 20, 4.013, Ca K?1
##OXINSTLABEL: 20, 0.345, Ca L?1
#SPECTRUM    : Spectral Data Starts Here
-0.20000, 0.0
-0.18000, 0.0
-0.16000, 0.0
-0.14000, 0.0
-0.12000, 0.0
-0.10000, 0.0
-0.08000, 0.0
-0.06000, 1.0
-0.04000, 20.0
-0.02000, 211.0
0.00000, 640.0
0.02000, 712.0
0.04000, 817.0
0.06000, 449.0
0.08000, 154.0
0.10000, 113.0
0.12000, 115.0
0.14000, 130.0
0.16000, 163.0
0.18000, 230.0
0.20000, 378.0
0.22000, 1050.0
0.24000, 3146.0
0.26000, 5658.0
0.28000, 4862.0
0.30000, 1914.0
0.32000, 487.0
0.34000, 190.0
0.36000, 142.0
0.38000, 142.0
0.40000, 148.0
0.42000, 164.0
0.44000, 274.0
0.46000, 757.0
0.48000, 2247.0
0.50000, 5187.0
0.52000, 7331.0
0.54000, 5286.0
0.56000, 1968.0
0.58000, 422.0
0.60000, 134.0
0.62000, 120.0
0.64000, 121.0
0.66000, 130.0
0.68000, 120.0
0.70000, 148.0
0.72000, 144.0
0.74000, 152.0
0.76000, 155.0
0.78000, 173.0
0.80000, 196.0
0.82000, 189.0
0.84000, 202.0
0.86000, 198.0
0.88000, 218.0
0.90000, 238.0
0.92000, 265.0
0.94000, 268.0
0.96000, 263.0
0.98000, 327.0
1.00000, 378.0
1.02000, 417.0
1.04000, 390.0
1.06000, 322.0
1.08000, 302.0
1.10000, 286.0
1.12000, 303.0
1.14000, 325.0
1.16000, 342.0
1.18000, 343.0
1.20000, 352.0
1.22000, 374.0
1.24000, 434.0
1.26000, 446.0
1.28000, 396.0
1.30000, 404.0
1.32000, 370.0
1.34000, 333.0
1.36000, 380.0
1.38000, 390.0
1.40000, 429.0
1.42000, 409.0
1.44000, 403.0
1.46000, 462.0
1.48000, 484.0
1.50000, 497.0
1.52000, 474.0
1.54000, 425.0
1.56000, 401.0
1.58000, 456.0
1.60000, 435.0
1.62000, 420.0
1.64000, 405.0
1.66000, 403.0
1.68000, 449.0
1.70000, 469.0
1.72000, 498.0
1.74000, 498.0
1.76000, 529.0
1.78000, 531.0
1.80000, 456.0
1.82000, 460.0
1.84000, 425.0
1.86000, 435.0
1.88000, 450.0
1.90000, 482.0
1.92000, 565.0
1.94000, 635.0
1.96000, 669.0
1.98000, 589.0
2.00000, 486.0
2.02000, 426.0
2.04000, 407.0
2.06000, 404.0
2.08000, 397.0
2.10000, 383.0
2.12000, 407.0
2.14000, 380.0
2.16000, 393.0
2.18000, 379.0
2.20000, 416.0
2.22000, 390.0
2.24000, 449.0
2.26000, 469.0
2.28000, 526.0
2.30000, 670.0
2.32000, 626.0
2.34000, 584.0
2.36000, 457.0
2.38000, 404.0
2.40000, 368.0
2.42000, 370.0
2.44000, 379.0
2.46000, 370.0
2.48000, 371.0
2.50000, 378.0
2.52000, 358.0
2.54000, 343.0
2.56000, 336.0
2.58000, 345.0
2.60000, 336.0
2.62000, 356.0
2.64000, 334.0
2.66000, 345.0
2.68000, 376.0
2.70000, 330.0
2.72000, 342.0
2.74000, 322.0
2.76000, 301.0
2.78000, 323.0
2.80000, 343.0
2.82000, 345.0
2.84000, 335.0
2.86000, 309.0
2.88000, 337.0
2.90000, 301.0
2.92000, 336.0
2.94000, 302.0
2.96000, 313.0
2.98000, 286.0
3.00000, 298.0
3.02000, 316.0
3.04000, 311.0
3.06000, 317.0
3.08000, 325.0
3.10000, 326.0
3.12000, 315.0
3.14000, 305.0
3.16000, 292.0
3.18000, 295.0
3.20000, 319.0
3.22000, 300.0
3.24000, 320.0
3.26000, 269.0
3.28000, 288.0
3.30000, 314.0
3.32000, 312.0
3.34000, 300.0
3.36000, 275.0
3.38000, 274.0
3.40000, 275.0
3.42000, 278.0
3.44000, 272.0
3.46000, 340.0
3.48000, 338.0
3.50000, 375.0
3.52000, 437.0
3.54000, 533.0
3.56000, 767.0
3.58000, 1172.0
3.60000, 2419.0
3.62000, 5167.0
3.64000, 9707.0
3.66000, 15486.0
3.68000, 20229.0
3.70000, 21642.0
3.72000, 18850.0
3.74000, 13023.0
3.76000, 7544.0
3.78000, 3592.0
3.80000, 1512.0
3.82000, 629.0
3.84000, 413.0
3.86000, 313.0
3.88000, 368.0
3.90000, 409.0
3.92000, 609.0
3.94000, 898.0
3.96000, 1446.0
3.98000, 1951.0
4.00000, 2590.0
4.02000, 2736.0
4.04000, 2482.0
4.06000, 1872.0
4.08000, 1184.0
4.10000, 692.0
4.12000, 407.0
4.14000, 273.0
4.16000, 182.0
4.18000, 207.0
4.20000, 177.0
4.22000, 160.0
4.24000, 171.0
4.26000, 186.0
4.28000, 161.0
4.30000, 183.0
4.32000, 171.0
4.34000, 163.0
4.36000, 166.0
4.38000, 192.0
4.40000, 168.0
4.42000, 215.0
4.44000, 237.0
4.46000, 241.0
4.48000, 233.0
4.50000, 241.0
4.52000, 207.0
4.54000, 182.0
4.56000, 153.0
4.58000, 132.0
4.60000, 161.0
4.62000, 146.0
4.64000, 147.0
4.66000, 153.0
4.68000, 151.0
4.70000, 156.0
4.72000, 148.0
4.74000, 141.0
4.76000, 164.0
4.78000, 164.0
4.80000, 156.0
4.82000, 184.0
4.84000, 184.0
4.86000, 197.0
4.88000, 175.0
4.90000, 157.0
4.92000, 157.0
4.94000, 159.0
4.96000, 155.0
4.98000, 162.0
5.00000, 163.0
5.02000, 130.0
5.04000, 136.0
5.06000, 145.0
5.08000, 157.0
5.10000, 142.0
5.12000, 149.0
5.14000, 159.0
5.16000, 162.0
5.18000, 146.0
5.20000, 154.0
5.22000, 135.0
5.24000, 125.0
5.26000, 142.0
5.28000, 139.0
5.30000, 139.0
5.32000, 130.0
5.34000, 122.0
5.36000, 136.0
5.38000, 112.0
5.40000, 129.0
5.42000, 144.0
5.44000, 117.0
5.46000, 139.0
5.48000, 133.0
5.50000, 128.0
5.52000, 142.0
5.54000, 114.0
5.56000, 126.0
5.58000, 121.0
5.60000, 113.0
5.62000, 114.0
5.64000, 116.0
5.66000, 133.0
5.68000, 134.0
5.70000, 116.0
5.72000, 110.0
5.74000, 110.0
5.76000, 125.0
5.78000, 124.0
5.80000, 139.0
5.82000, 105.0
5.84000, 124.0
5.86000, 117.0
5.88000, 120.0
5.90000, 138.0
5.92000, 130.0
5.94000, 104.0
5.96000, 107.0
5.98000, 111.0
6.00000, 95.0
6.02000, 114.0
6.04000, 115.0
6.06000, 96.0
6.08000, 119.0
6.10000, 133.0
6.12000, 113.0
6.14000, 115.0
6.16000, 110.0
6.18000, 123.0
6.20000, 99.0
6.22000, 126.0
6.24000, 98.0
6.26000, 78.0
6.28000, 102.0
6.30000, 106.0
6.32000, 93.0
6.34000, 118.0
6.36000, 120.0
6.38000, 95.0
6.40000, 94.0
6.42000, 121.0
6.44000, 108.0
6.46000, 105.0
6.48000, 114.0
6.50000, 95.0
6.52000, 104.0
6.54000, 86.0
6.56000, 78.0
6.58000, 94.0
6.60000, 90.0
6.62000, 95.0
6.64000, 94.0
6.66000, 90.0
6.68000, 114.0
6.70000, 91.0
6.72000, 86.0
6.74000, 85.0
6.76000, 95.0
6.78000, 92.0
6.80000, 97.0
6.82000, 89.0
6.84000, 84.0
6.86000, 95.0
6.88000, 106.0
6.90000, 85.0
6.92000, 80.0
6.94000, 106.0
6.96000, 99.0
6.98000, 89.0
7.00000, 90.0
7.02000, 81.0
7.04000, 80.0
7.06000, 86.0
7.08000, 89.0
7.10000, 102.0
7.12000, 107.0
7.14000, 78.0
7.16000, 87.0
7.18000, 88.0
7.20000, 92.0
7.22000, 86.0
7.24000, 101.0
7.26000, 83.0
7.28000, 90.0
7.30000, 91.0
7.32000, 103.0
7.34000, 125.0
7.36000, 134.0
7.38000, 119.0
7.40000, 126.0
7.42000, 107.0
7.44000, 118.0
7.46000, 95.0
7.48000, 91.0
7.50000, 75.0
7.52000, 83.0
7.54000, 84.0
7.56000, 88.0
7.58000, 74.0
7.60000, 92.0
7.62000, 82.0
7.64000, 79.0
7.66000, 73.0
7.68000, 80.0
7.70000, 85.0
7.72000, 69.0
7.74000, 81.0
7.76000, 83.0
7.78000, 70.0
7.80000, 80.0
7.82000, 74.0
7.84000, 83.0
7.86000, 65.0
7.88000, 78.0
7.90000, 73.0
7.92000, 75.0
7.94000, 65.0
7.96000, 70.0
7.98000, 68.0
8.00000, 80.0
8.02000, 66.0
8.04000, 71.0
8.06000, 83.0
8.08000, 68.0
8.10000, 78.0
8.12000, 75.0
8.14000, 66.0
8.16000, 68.0
8.18000, 69.0
8.20000, 70.0
8.22000, 81.0
8.24000, 71.0
8.26000, 55.0
8.28000, 62.0
8.30000, 74.0
8.32000, 53.0
8.34000, 69.0
8.36000, 75.0
8.38000, 74.0
8.40000, 59.0
8.42000, 73.0
8.44000, 58.0
8.46000, 65.0
8.48000, 73.0
8.50000, 78.0
8.52000, 75.0
8.54000, 61.0
8.56000, 85.0
8.58000, 64.0
8.60000, 83.0
8.62000, 74.0
8.64000, 82.0
8.66000, 71.0
8.68000, 78.0
8.70000, 66.0
8.72000, 60.0
8.74000, 64.0
8.76000, 58.0
8.78000, 67.0
8.80000, 63.0
8.82000, 67.0
8.84000, 54.0
8.86000, 57.0
8.88000, 60.0
8.90000, 57.0
8.92000, 64.0
8.94000, 57.0
8.96000, 44.0
8.98000, 53.0
9.00000, 48.0
9.02000, 54.0
9.04000, 62.0
9.06000, 51.0
9.08000, 48.0
9.10000, 53.0
9.12000, 50.0
9.14000, 51.0
9.16000, 45.0
9.18000, 47.0
9.20000, 56.0
9.22000, 46.0
9.24000, 55.0
9.26000, 61.0
9.28000, 57.0
9.30000, 52.0
9.32000, 58.0
9.34000, 53.0
9.36000, 45.0
9.38000, 50.0
9.40000, 38.0
9.42000, 53.0
9.44000, 43.0
9.46000, 50.0
9.48000, 67.0
9.50000, 47.0
9.52000, 52.0
9.54000, 52.0
9.56000, 46.0
9.58000, 54.0
9.60000, 42.0
9.62000, 59.0
9.64000, 43.0
9.66000, 43.0
9.68000, 56.0
9.70000, 45.0
9.72000, 37.0
9.74000, 37.0
9.76000, 44.0
9.78000, 62.0
9.80000, 50.0
9.82000, 47.0
9.84000, 42.0
9.86000, 49.0
9.88000, 50.0
9.90000, 53.0
9.92000, 45.0
9.94000, 37.0
9.96000, 40.0
9.98000, 53.0
10.00000, 43.0
10.02000, 54.0
10.04000, 46.0
10.06000, 38.0
10.08000, 42.0
10.10000, 49.0
10.12000, 45.0
10.14000, 48.0
10.16000, 37.0
10.18000, 41.0
10.20000, 34.0
10.22000, 35.0
10.24000, 44.0
10.26000, 46.0
10.28000, 37.0
10.30000, 37.0
10.32000, 37.0
10.34000, 52.0
10.36000, 39.0
10.38000, 33.0
10.40000, 42.0
10.42000, 33.0
10.44000, 32.0
10.46000, 34.0
10.48000, 32.0
10.50000, 41.0
10.52000, 26.0
10.54000, 35.0
10.56000, 30.0
10.58000, 34.0
10.60000, 28.0
10.62000, 31.0
10.64000, 37.0
10.66000, 38.0
10.68000, 41.0
10.70000, 42.0
10.72000, 30.0
10.74000, 39.0
10.76000, 35.0
10.78000, 45.0
10.80000, 34.0
10.82000, 32.0
10.84000, 40.0
10.86000, 27.0
10.88000, 30.0
10.90000, 37.0
10.92000, 42.0
10.94000, 36.0
10.96000, 32.0
10.98000, 31.0
11.00000, 42.0
11.02000, 32.0
11.04000, 43.0
11.06000, 37.0
11.08000, 33.0
11.10000, 36.0
11.12000, 29.0
11.14000, 26.0
11.16000, 29.0
11.18000, 42.0
11.20000, 46.0
11.22000, 32.0
11.24000, 35.0
11.26000, 30.0
11.28000, 37.0
11.30000, 38.0
11.32000, 28.0
11.34000, 32.0
11.36000, 28.0
11.38000, 26.0
11.40000, 32.0
11.42000, 27.0
11.44000, 25.0
11.46000, 32.0
11.48000, 21.0
11.50000, 20.0
11.52000, 22.0
11.54000, 20.0
11.56000, 28.0
11.58000, 24.0
11.60000, 27.0
11.62000, 35.0
11.64000, 33.0
11.66000, 18.0
11.68000, 27.0
11.70000, 27.0
11.72000, 30.0
11.74000, 32.0
11.76000, 31.0
11.78000, 29.0
11.80000, 22.0
11.82000, 35.0
11.84000, 28.0
11.86000, 28.0
11.88000, 27.0
11.90000, 34.0
11.92000, 19.0
11.94000, 30.0
11.96000, 24.0
11.98000, 24.0
12.00000, 21.0
12.02000, 33.0
12.04000, 31.0
12.06000, 24.0
12.08000, 18.0
12.10000, 24.0
12.12000, 29.0
12.14000, 25.0
12.16000, 16.0
12.18000, 23.0
12.20000, 28.0
12.22000, 38.0
12.24000, 21.0
12.26000, 23.0
12.28000, 20.0
12.30000, 25.0
12.32000, 18.0
12.34000, 18.0
12.36000, 24.0
12.38000, 24.0
12.40000, 23.0
12.42000, 18.0
12.44000, 22.0
12.46000, 22.0
12.48000, 14.0
12.50000, 19.0
12.52000, 22.0
12.54000, 18.0
12.56000, 18.0
12.58000, 18.0
12.60000, 20.0
12.62000, 25.0
12.64000, 19.0
12.66000, 24.0
12.68000, 18.0
12.70000, 24.0
12.72000, 24.0
12.74000, 26.0
12.76000, 17.0
12.78000, 13.0
12.80000, 20.0
12.82000, 17.0
12.84000, 12.0
12.86000, 22.0
12.88000, 14.0
12.90000, 20.0
12.92000, 21.0
12.94000, 17.0
12.96000, 20.0
12.98000, 18.0
13.00000, 20.0
13.02000, 18.0
13.04000, 20.0
13.06000, 21.0
13.08000, 13.0
13.10000, 19.0
13.12000, 17.0
13.14000, 19.0
13.16000, 10.0
13.18000, 21.0
13.20000, 17.0
13.22000, 13.0
13.24000, 17.0
13.26000, 12.0
13.28000, 16.0
13.30000, 18.0
13.32000, 14.0
13.34000, 18.0
13.36000, 12.0
13.38000, 10.0
13.40000, 16.0
13.42000, 14.0
13.44000, 16.0
13.46000, 17.0
13.48000, 19.0
13.50000, 19.0
13.52000, 20.0
13.54000, 20.0
13.56000, 13.0
13.58000, 14.0
13.60000, 16.0
13.62000, 15.0
13.64000, 15.0
13.66000, 13.0
13.68000, 16.0
13.70000, 13.0
13.72000, 16.0
13.74000, 10.0
13.76000, 11.0
13.78000, 16.0
13.80000, 17.0
13.82000, 10.0
13.84000, 16.0
13.86000, 13.0
13.88000, 9.0
13.90000, 9.0
13.92000, 4.0
13.94000, 17.0
13.96000, 16.0
13.98000, 16.0
14.00000, 15.0
14.02000, 12.0
14.04000, 17.0
14.06000, 11.0
14.08000, 9.0
14.10000, 12.0
14.12000, 13.0
14.14000, 21.0
14.16000, 13.0
14.18000, 10.0
14.20000, 15.0
14.22000, 11.0
14.24000, 14.0
14.26000, 12.0
14.28000, 8.0
14.30000, 10.0
14.32000, 15.0
14.34000, 16.0
14.36000, 13.0
14.38000, 13.0
14.40000, 13.0
14.42000, 13.0
14.44000, 20.0
14.46000, 9.0
14.48000, 9.0
14.50000, 15.0
14.52000, 11.0
14.54000, 7.0
14.56000, 13.0
14.58000, 12.0
14.60000, 12.0
14.62000, 15.0
14.64000, 8.0
14.66000, 12.0
14.68000, 12.0
14.70000, 12.0
14.72000, 8.0
14.74000, 13.0
14.76000, 6.0
14.78000, 7.0
14.80000, 6.0
14.82000, 5.0
14.84000, 8.0
14.86000, 17.0
14.88000, 13.0
14.90000, 9.0
14.92000, 8.0
14.94000, 5.0
14.96000, 5.0
14.98000, 8.0
15.00000, 11.0
15.02000, 5.0
15.04000, 8.0
15.06000, 16.0
15.08000, 7.0
15.10000, 8.0
15.12000, 8.0
15.14000, 8.0
15.16000, 9.0
15.18000, 7.0
15.20000, 4.0
15.22000, 6.0
15.24000, 13.0
15.26000, 8.0
15.28000, 8.0
15.30000, 8.0
15.32000, 10.0
15.34000, 3.0
15.36000, 5.0
15.38000, 10.0
15.40000, 13.0
15.42000, 8.0
15.44000, 8.0
15.46000, 11.0
15.48000, 10.0
15.50000, 10.0
15.52000, 11.0
15.54000, 13.0
15.56000, 8.0
15.58000, 2.0
15.60000, 12.0
15.62000, 9.0
15.64000, 8.0
15.66000, 6.0
15.68000, 6.0
15.70000, 9.0
15.72000, 8.0
15.74000, 7.0
15.76000, 5.0
15.78000, 6.0
15.80000, 7.0
15.82000, 9.0
15.84000, 3.0
15.86000, 3.0
15.88000, 9.0
15.90000, 8.0
15.92000, 5.0
15.94000, 8.0
15.96000, 6.0
15.98000, 4.0
16.00000, 9.0
16.02000, 4.0
16.04000, 9.0
16.06000, 8.0
16.08000, 4.0
16.10000, 8.0
16.12000, 9.0
16.14000, 3.0
16.16000, 4.0
16.18000, 5.0
16.20000, 5.0
16.22000, 4.0
16.24000, 5.0
16.26000, 6.0
16.28000, 5.0
16.30000, 6.0
16.32000, 3.0
16.34000, 6.0
16.36000, 7.0
16.38000, 4.0
16.40000, 7.0
16.42000, 3.0
16.44000, 5.0
16.46000, 8.0
16.48000, 2.0
16.50000, 4.0
16.52000, 3.0
16.54000, 2.0
16.56000, 2.0
16.58000, 5.0
16.60000, 5.0
16.62000, 4.0
16.64000, 4.0
16.66000, 3.0
16.68000, 7.0
16.70000, 6.0
16.72000, 3.0
16.74000, 6.0
16.76000, 5.0
16.78000, 5.0
16.80000, 6.0
16.82000, 2.0
16.84000, 1.0
16.86000, 6.0
16.88000, 3.0
16.90000, 3.0
16.92000, 3.0
16.94000, 1.0
16.96000, 3.0
16.98000, 4.0
17.00000, 5.0
17.02000, 3.0
17.04000, 3.0
17.06000, 5.0
17.08000, 5.0
17.10000, 4.0
17.12000, 5.0
17.14000, 2.0
17.16000, 3.0
17.18000, 2.0
17.20000, 6.0
17.22000, 4.0
17.24000, 1.0
17.26000, 3.0
17.28000, 1.0
17.30000, 2.0
17.32000, 4.0
17.34000, 2.0
17.36000, 3.0
17.38000, 3.0
17.40000, 6.0
17.42000, 2.0
17.44000, 4.0
17.46000, 2.0
17.48000, 3.0
17.50000, 1.0
17.52000, 3.0
17.54000, 3.0
17.56000, 4.0
17.58000, 5.0
17.60000, 1.0
17.62000, 4.0
17.64000, 1.0
17.66000, 2.0
17.68000, 5.0
17.70000, 2.0
17.72000, 1.0
17.74000, 4.0
17.76000, 2.0
17.78000, 1.0
17.80000, 1.0
17.82000, 1.0
17.84000, 3.0
17.86000, 2.0
17.88000, 4.0
17.90000, 2.0
17.92000, 2.0
17.94000, 1.0
17.96000, 5.0
17.98000, 6.0
18.00000, 2.0
18.02000, 1.0
18.04000, 2.0
18.06000, 3.0
18.08000, 1.0
18.10000, 4.0
18.12000, 1.0
18.14000, 1.0
18.16000, 3.0
18.18000, 1.0
18.20000, 1.0
18.22000, 0.0
18.24000, 1.0
18.26000, 1.0
18.28000, 1.0
18.30000, 2.0
18.32000, 0.0
18.34000, 1.0
18.36000, 1.0
18.38000, 1.0
18.40000, 2.0
18.42000, 1.0
18.44000, 1.0
18.46000, 1.0
18.48000, 2.0
18.50000, 1.0
18.52000, 2.0
18.54000, 0.0
18.56000, 0.0
18.58000, 2.0
18.60000, 2.0
18.62000, 0.0
18.64000, 0.0
18.66000, 2.0
18.68000, 2.0
18.70000, 1.0
18.72000, 1.0
18.74000, 1.0
18.76000, 1.0
18.78000, 0.0
18.80000, 0.0
18.82000, 2.0
18.84000, 0.0
18.86000, 0.0
18.88000, 1.0
18.90000, 1.0
18.92000, 1.0
18.94000, 0.0
18.96000, 0.0
18.98000, 1.0
19.00000, 0.0
19.02000, 0.0
19.04000, 1.0
19.06000, 1.0
19.08000, 0.0
19.10000, 0.0
19.12000, 1.0
19.14000, 0.0
19.16000, 1.0
19.18000, 1.0
19.20000, 1.0
19.22000, 1.0
19.24000, 0.0
19.26000, 0.0
19.28000, 0.0
19.30000, 0.0
19.32000, 0.0
19.34000, 2.0
19.36000, 0.0
19.38000, 1.0
19.40000, 1.0
19.42000, 0.0
19.44000, 1.0
19.46000, 0.0
19.48000, 0.0
19.50000, 1.0
19.52000, 1.0
19.54000, 0.0
19.56000, 0.0
19.58000, 1.0
19.60000, 1.0
19.62000, 0.0
19.64000, 1.0
19.66000, 0.0
19.68000, 0.0
19.70000, 0.0
19.72000, 0.0
19.74000, 1.0
19.76000, 0.0
19.78000, 1.0
19.80000, 0.0
19.82000, 0.0
19.84000, 0.0
19.86000, 0.0
19.88000, 0.0
19.90000, 0.0
19.92000, 0.0
19.94000, 0.0
19.96000, 0.0
19.98000, 0.0
20.00000, 0.0
20.02000, 0.0
20.04000, 1.0
20.06000, 0.0
20.08000, 0.0
20.10000, 0.0
20.12000, 1.0
20.14000, 0.0
20.16000, 0.0
20.18000, 0.0
20.20000, 0.0
20.22000, 0.0
20.24000, 0.0
20.26000, 0.0
20.27000, 0.0
#ENDOFDATA   :