File: src/zuy/data/21.msa
#FORMAT      : EMSA/MAS Spectral Data File
#VERSION     : 1.0
#TITLE       : 21
#DATE        : 02-FEB-2022
#TIME        : 16:19
#OWNER       :
#NPOINTS     : 2048.0
#NCOLUMNS    : 1.0
#XUNITS      : keV
#YUNITS      : counts
#DATATYPE    : XY
#XPERCHAN    : 0.01
#OFFSET      : -0.2
#SIGNALTYPE  : EDS_SEM
#CHOFFSET    : 20.0
#LIVETIME    : 20.0
#REALTIME    : 22.3934
#BEAMKV      : 20.0
#PROBECUR    : 1.268864
#MAGCAM      : 299.0
#XTILTSTGE   : 0.0
#AZIMANGLE   : 0.0
#ELEVANGLE   : 35.0
#XPOSITION mm: -10.3467
#YPOSITION mm: -9.5703
#ZPOSITION mm: 12.0498
##OXINSTPT   : 5
##OXINSTSTROB: 37.37
##OXINSTNDET : 1
##OXINSTELEMS: 6,8,13,14,16,20,30,56
##OXINSTLABEL: 6, 0.277, C K?1,2
##OXINSTLABEL: 8, 0.525, O K?1
##OXINSTLABEL: 13, 1.487, Al K?1
##OXINSTLABEL: 14, 1.740, Si K?1
##OXINSTLABEL: 16, 2.308, S K?1
##OXINSTLABEL: 16, 2.464, S K?1
##OXINSTLABEL: 20, 0.303, Ca Ll
##OXINSTLABEL: 20, 3.692, Ca K?1
##OXINSTLABEL: 20, 4.013, Ca K?1
##OXINSTLABEL: 20, 0.345, Ca L?1
##OXINSTLABEL: 30, 8.639, Zn K?1
##OXINSTLABEL: 30, 9.572, Zn K?1
##OXINSTLABEL: 30, 1.012, Zn L?1,2
##OXINSTLABEL: 30, 0.906, Zn L?
##OXINSTLABEL: 30, 0.884, Zn Ll
##OXINSTLABEL: 56, 4.466, Ba L?1
##OXINSTLABEL: 56, 4.828, Ba L?1
##OXINSTLABEL: 56, 5.157, Ba L?2,15
##OXINSTLABEL: 56, 4.331, Ba L?
##OXINSTLABEL: 56, 5.531, Ba L?1
##OXINSTLABEL: 56, 5.797, Ba L?2
##OXINSTLABEL: 56, 3.954, Ba Ll
##OXINSTLABEL: 56, 0.780, Ba M?
##OXINSTLABEL: 56, 0.601, Ba M?
##OXINSTLABEL: 56, 0.075, Ba N5-O3
#SPECTRUM    : Spectral Data Starts Here
-0.20000, 0.0
-0.18000, 0.0
-0.16000, 0.0
-0.14000, 0.0
-0.12000, 0.0
-0.10000, 0.0
-0.08000, 0.0
-0.06000, 1.0
-0.04000, 21.0
-0.02000, 206.0
0.00000, 645.0
0.02000, 795.0
0.04000, 949.0
0.06000, 540.0
0.08000, 132.0
0.10000, 66.0
0.12000, 77.0
0.14000, 77.0
0.16000, 86.0
0.18000, 100.0
0.20000, 155.0
0.22000, 459.0
0.24000, 1423.0
0.26000, 2571.0
0.28000, 2175.0
0.30000, 811.0
0.32000, 152.0
0.34000, 51.0
0.36000, 47.0
0.38000, 74.0
0.40000, 65.0
0.42000, 86.0
0.44000, 167.0
0.46000, 400.0
0.48000, 1167.0
0.50000, 2544.0
0.52000, 3515.0
0.54000, 2632.0
0.56000, 1038.0
0.58000, 282.0
0.60000, 165.0
0.62000, 113.0
0.64000, 85.0
0.66000, 66.0
0.68000, 79.0
0.70000, 87.0
0.72000, 127.0
0.74000, 124.0
0.76000, 141.0
0.78000, 169.0
0.80000, 168.0
0.82000, 142.0
0.84000, 130.0
0.86000, 142.0
0.88000, 161.0
0.90000, 169.0
0.92000, 139.0
0.94000, 185.0
0.96000, 307.0
0.98000, 555.0
1.00000, 902.0
1.02000, 1076.0
1.04000, 866.0
1.06000, 570.0
1.08000, 288.0
1.10000, 178.0
1.12000, 143.0
1.14000, 121.0
1.16000, 113.0
1.18000, 133.0
1.20000, 137.0
1.22000, 152.0
1.24000, 149.0
1.26000, 187.0
1.28000, 154.0
1.30000, 148.0
1.32000, 150.0
1.34000, 143.0
1.36000, 163.0
1.38000, 164.0
1.40000, 188.0
1.42000, 304.0
1.44000, 589.0
1.46000, 1224.0
1.48000, 1752.0
1.50000, 1737.0
1.52000, 1175.0
1.54000, 609.0
1.56000, 308.0
1.58000, 218.0
1.60000, 208.0
1.62000, 184.0
1.64000, 221.0
1.66000, 226.0
1.68000, 501.0
1.70000, 933.0
1.72000, 1643.0
1.74000, 2001.0
1.76000, 1809.0
1.78000, 1222.0
1.80000, 726.0
1.82000, 456.0
1.84000, 342.0
1.86000, 276.0
1.88000, 241.0
1.90000, 201.0
1.92000, 204.0
1.94000, 177.0
1.96000, 194.0
1.98000, 168.0
2.00000, 176.0
2.02000, 197.0
2.04000, 170.0
2.06000, 193.0
2.08000, 171.0
2.10000, 190.0
2.12000, 195.0
2.14000, 200.0
2.16000, 251.0
2.18000, 265.0
2.20000, 360.0
2.22000, 497.0
2.24000, 809.0
2.26000, 1439.0
2.28000, 2464.0
2.30000, 3318.0
2.32000, 3440.0
2.34000, 2769.0
2.36000, 1610.0
2.38000, 789.0
2.40000, 440.0
2.42000, 372.0
2.44000, 391.0
2.46000, 400.0
2.48000, 372.0
2.50000, 341.0
2.52000, 256.0
2.54000, 241.0
2.56000, 208.0
2.58000, 210.0
2.60000, 247.0
2.62000, 260.0
2.64000, 249.0
2.66000, 236.0
2.68000, 221.0
2.70000, 209.0
2.72000, 204.0
2.74000, 207.0
2.76000, 189.0
2.78000, 204.0
2.80000, 190.0
2.82000, 179.0
2.84000, 185.0
2.86000, 187.0
2.88000, 172.0
2.90000, 191.0
2.92000, 186.0
2.94000, 169.0
2.96000, 187.0
2.98000, 187.0
3.00000, 189.0
3.02000, 187.0
3.04000, 186.0
3.06000, 208.0
3.08000, 211.0
3.10000, 203.0
3.12000, 211.0
3.14000, 202.0
3.16000, 206.0
3.18000, 205.0
3.20000, 206.0
3.22000, 194.0
3.24000, 231.0
3.26000, 224.0
3.28000, 216.0
3.30000, 267.0
3.32000, 261.0
3.34000, 240.0
3.36000, 232.0
3.38000, 243.0
3.40000, 192.0
3.42000, 182.0
3.44000, 190.0
3.46000, 198.0
3.48000, 197.0
3.50000, 187.0
3.52000, 205.0
3.54000, 197.0
3.56000, 231.0
3.58000, 207.0
3.60000, 250.0
3.62000, 281.0
3.64000, 390.0
3.66000, 461.0
3.68000, 566.0
3.70000, 600.0
3.72000, 574.0
3.74000, 447.0
3.76000, 321.0
3.78000, 260.0
3.80000, 225.0
3.82000, 206.0
3.84000, 213.0
3.86000, 206.0
3.88000, 219.0
3.90000, 245.0
3.92000, 257.0
3.94000, 270.0
3.96000, 315.0
3.98000, 319.0
4.00000, 332.0
4.02000, 271.0
4.04000, 243.0
4.06000, 228.0
4.08000, 217.0
4.10000, 218.0
4.12000, 198.0
4.14000, 181.0
4.16000, 191.0
4.18000, 186.0
4.20000, 212.0
4.22000, 221.0
4.24000, 205.0
4.26000, 199.0
4.28000, 229.0
4.30000, 233.0
4.32000, 247.0
4.34000, 316.0
4.36000, 445.0
4.38000, 673.0
4.40000, 1125.0
4.42000, 1724.0
4.44000, 2374.0
4.46000, 2803.0
4.48000, 2776.0
4.50000, 2476.0
4.52000, 1745.0
4.54000, 1083.0
4.56000, 672.0
4.58000, 390.0
4.60000, 239.0
4.62000, 213.0
4.64000, 190.0
4.66000, 201.0
4.68000, 206.0
4.70000, 212.0
4.72000, 298.0
4.74000, 401.0
4.76000, 610.0
4.78000, 897.0
4.80000, 1161.0
4.82000, 1374.0
4.84000, 1514.0
4.86000, 1422.0
4.88000, 1129.0
4.90000, 864.0
4.92000, 689.0
4.94000, 567.0
4.96000, 425.0
4.98000, 345.0
5.00000, 302.0
5.02000, 259.0
5.04000, 219.0
5.06000, 244.0
5.08000, 291.0
5.10000, 378.0
5.12000, 487.0
5.14000, 598.0
5.16000, 609.0
5.18000, 645.0
5.20000, 497.0
5.22000, 430.0
5.24000, 292.0
5.26000, 210.0
5.28000, 184.0
5.30000, 137.0
5.32000, 153.0
5.34000, 145.0
5.36000, 153.0
5.38000, 157.0
5.40000, 146.0
5.42000, 138.0
5.44000, 174.0
5.46000, 161.0
5.48000, 217.0
5.50000, 280.0
5.52000, 314.0
5.54000, 288.0
5.56000, 303.0
5.58000, 254.0
5.60000, 210.0
5.62000, 210.0
5.64000, 158.0
5.66000, 135.0
5.68000, 125.0
5.70000, 150.0
5.72000, 147.0
5.74000, 161.0
5.76000, 165.0
5.78000, 164.0
5.80000, 201.0
5.82000, 166.0
5.84000, 168.0
5.86000, 162.0
5.88000, 136.0
5.90000, 145.0
5.92000, 106.0
5.94000, 121.0
5.96000, 132.0
5.98000, 133.0
6.00000, 122.0
6.02000, 116.0
6.04000, 132.0
6.06000, 101.0
6.08000, 117.0
6.10000, 111.0
6.12000, 119.0
6.14000, 110.0
6.16000, 102.0
6.18000, 106.0
6.20000, 116.0
6.22000, 109.0
6.24000, 108.0
6.26000, 93.0
6.28000, 110.0
6.30000, 128.0
6.32000, 123.0
6.34000, 120.0
6.36000, 117.0
6.38000, 141.0
6.40000, 136.0
6.42000, 129.0
6.44000, 115.0
6.46000, 129.0
6.48000, 116.0
6.50000, 113.0
6.52000, 100.0
6.54000, 123.0
6.56000, 106.0
6.58000, 125.0
6.60000, 105.0
6.62000, 104.0
6.64000, 99.0
6.66000, 123.0
6.68000, 102.0
6.70000, 110.0
6.72000, 102.0
6.74000, 104.0
6.76000, 105.0
6.78000, 110.0
6.80000, 108.0
6.82000, 102.0
6.84000, 103.0
6.86000, 104.0
6.88000, 107.0
6.90000, 104.0
6.92000, 94.0
6.94000, 103.0
6.96000, 111.0
6.98000, 108.0
7.00000, 109.0
7.02000, 103.0
7.04000, 96.0
7.06000, 98.0
7.08000, 97.0
7.10000, 97.0
7.12000, 108.0
7.14000, 109.0
7.16000, 95.0
7.18000, 102.0
7.20000, 103.0
7.22000, 83.0
7.24000, 102.0
7.26000, 108.0
7.28000, 99.0
7.30000, 92.0
7.32000, 88.0
7.34000, 86.0
7.36000, 113.0
7.38000, 99.0
7.40000, 90.0
7.42000, 102.0
7.44000, 94.0
7.46000, 107.0
7.48000, 98.0
7.50000, 90.0
7.52000, 103.0
7.54000, 97.0
7.56000, 109.0
7.58000, 85.0
7.60000, 85.0
7.62000, 88.0
7.64000, 95.0
7.66000, 88.0
7.68000, 113.0
7.70000, 80.0
7.72000, 73.0
7.74000, 77.0
7.76000, 93.0
7.78000, 73.0
7.80000, 91.0
7.82000, 92.0
7.84000, 99.0
7.86000, 90.0
7.88000, 75.0
7.90000, 76.0
7.92000, 85.0
7.94000, 91.0
7.96000, 85.0
7.98000, 82.0
8.00000, 92.0
8.02000, 92.0
8.04000, 95.0
8.06000, 85.0
8.08000, 114.0
8.10000, 74.0
8.12000, 65.0
8.14000, 96.0
8.16000, 86.0
8.18000, 71.0
8.20000, 78.0
8.22000, 95.0
8.24000, 89.0
8.26000, 88.0
8.28000, 90.0
8.30000, 86.0
8.32000, 87.0
8.34000, 89.0
8.36000, 70.0
8.38000, 98.0
8.40000, 104.0
8.42000, 84.0
8.44000, 89.0
8.46000, 113.0
8.48000, 120.0
8.50000, 119.0
8.52000, 199.0
8.54000, 252.0
8.56000, 317.0
8.58000, 397.0
8.60000, 503.0
8.62000, 484.0
8.64000, 499.0
8.66000, 475.0
8.68000, 373.0
8.70000, 302.0
8.72000, 221.0
8.74000, 179.0
8.76000, 137.0
8.78000, 107.0
8.80000, 81.0
8.82000, 78.0
8.84000, 91.0
8.86000, 85.0
8.88000, 83.0
8.90000, 80.0
8.92000, 61.0
8.94000, 82.0
8.96000, 77.0
8.98000, 83.0
9.00000, 76.0
9.02000, 78.0
9.04000, 80.0
9.06000, 76.0
9.08000, 94.0
9.10000, 77.0
9.12000, 63.0
9.14000, 86.0
9.16000, 88.0
9.18000, 66.0
9.20000, 76.0
9.22000, 83.0
9.24000, 80.0
9.26000, 72.0
9.28000, 66.0
9.30000, 70.0
9.32000, 80.0
9.34000, 73.0
9.36000, 76.0
9.38000, 76.0
9.40000, 80.0
9.42000, 76.0
9.44000, 65.0
9.46000, 78.0
9.48000, 95.0
9.50000, 115.0
9.52000, 106.0
9.54000, 128.0
9.56000, 127.0
9.58000, 120.0
9.60000, 129.0
9.62000, 114.0
9.64000, 104.0
9.66000, 93.0
9.68000, 83.0
9.70000, 66.0
9.72000, 65.0
9.74000, 60.0
9.76000, 65.0
9.78000, 67.0
9.80000, 66.0
9.82000, 51.0
9.84000, 60.0
9.86000, 63.0
9.88000, 62.0
9.90000, 51.0
9.92000, 58.0
9.94000, 67.0
9.96000, 44.0
9.98000, 61.0
10.00000, 61.0
10.02000, 75.0
10.04000, 67.0
10.06000, 59.0
10.08000, 58.0
10.10000, 59.0
10.12000, 54.0
10.14000, 50.0
10.16000, 69.0
10.18000, 57.0
10.20000, 58.0
10.22000, 62.0
10.24000, 56.0
10.26000, 61.0
10.28000, 58.0
10.30000, 58.0
10.32000, 64.0
10.34000, 64.0
10.36000, 66.0
10.38000, 56.0
10.40000, 53.0
10.42000, 51.0
10.44000, 58.0
10.46000, 53.0
10.48000, 49.0
10.50000, 54.0
10.52000, 64.0
10.54000, 55.0
10.56000, 48.0
10.58000, 46.0
10.60000, 58.0
10.62000, 56.0
10.64000, 48.0
10.66000, 51.0
10.68000, 58.0
10.70000, 42.0
10.72000, 54.0
10.74000, 56.0
10.76000, 56.0
10.78000, 60.0
10.80000, 61.0
10.82000, 42.0
10.84000, 43.0
10.86000, 51.0
10.88000, 51.0
10.90000, 50.0
10.92000, 55.0
10.94000, 44.0
10.96000, 36.0
10.98000, 54.0
11.00000, 35.0
11.02000, 44.0
11.04000, 42.0
11.06000, 52.0
11.08000, 54.0
11.10000, 36.0
11.12000, 39.0
11.14000, 40.0
11.16000, 55.0
11.18000, 42.0
11.20000, 47.0
11.22000, 49.0
11.24000, 37.0
11.26000, 32.0
11.28000, 47.0
11.30000, 41.0
11.32000, 43.0
11.34000, 52.0
11.36000, 35.0
11.38000, 52.0
11.40000, 46.0
11.42000, 48.0
11.44000, 41.0
11.46000, 51.0
11.48000, 51.0
11.50000, 48.0
11.52000, 43.0
11.54000, 47.0
11.56000, 40.0
11.58000, 40.0
11.60000, 43.0
11.62000, 44.0
11.64000, 46.0
11.66000, 43.0
11.68000, 36.0
11.70000, 37.0
11.72000, 41.0
11.74000, 43.0
11.76000, 42.0
11.78000, 33.0
11.80000, 43.0
11.82000, 33.0
11.84000, 41.0
11.86000, 37.0
11.88000, 39.0
11.90000, 41.0
11.92000, 41.0
11.94000, 44.0
11.96000, 38.0
11.98000, 33.0
12.00000, 45.0
12.02000, 41.0
12.04000, 41.0
12.06000, 44.0
12.08000, 41.0
12.10000, 54.0
12.12000, 43.0
12.14000, 33.0
12.16000, 47.0
12.18000, 42.0
12.20000, 25.0
12.22000, 36.0
12.24000, 41.0
12.26000, 30.0
12.28000, 36.0
12.30000, 22.0
12.32000, 38.0
12.34000, 46.0
12.36000, 32.0
12.38000, 31.0
12.40000, 32.0
12.42000, 36.0
12.44000, 19.0
12.46000, 35.0
12.48000, 35.0
12.50000, 33.0
12.52000, 38.0
12.54000, 30.0
12.56000, 34.0
12.58000, 37.0
12.60000, 28.0
12.62000, 33.0
12.64000, 29.0
12.66000, 35.0
12.68000, 33.0
12.70000, 32.0
12.72000, 45.0
12.74000, 24.0
12.76000, 30.0
12.78000, 27.0
12.80000, 32.0
12.82000, 26.0
12.84000, 30.0
12.86000, 30.0
12.88000, 28.0
12.90000, 23.0
12.92000, 36.0
12.94000, 26.0
12.96000, 32.0
12.98000, 36.0
13.00000, 30.0
13.02000, 26.0
13.04000, 32.0
13.06000, 34.0
13.08000, 20.0
13.10000, 26.0
13.12000, 25.0
13.14000, 30.0
13.16000, 27.0
13.18000, 18.0
13.20000, 33.0
13.22000, 23.0
13.24000, 21.0
13.26000, 18.0
13.28000, 28.0
13.30000, 25.0
13.32000, 37.0
13.34000, 28.0
13.36000, 23.0
13.38000, 26.0
13.40000, 28.0
13.42000, 37.0
13.44000, 17.0
13.46000, 42.0
13.48000, 24.0
13.50000, 25.0
13.52000, 18.0
13.54000, 24.0
13.56000, 21.0
13.58000, 21.0
13.60000, 27.0
13.62000, 35.0
13.64000, 19.0
13.66000, 28.0
13.68000, 27.0
13.70000, 30.0
13.72000, 19.0
13.74000, 22.0
13.76000, 25.0
13.78000, 26.0
13.80000, 24.0
13.82000, 25.0
13.84000, 25.0
13.86000, 21.0
13.88000, 18.0
13.90000, 22.0
13.92000, 27.0
13.94000, 16.0
13.96000, 30.0
13.98000, 22.0
14.00000, 23.0
14.02000, 20.0
14.04000, 25.0
14.06000, 20.0
14.08000, 22.0
14.10000, 27.0
14.12000, 22.0
14.14000, 27.0
14.16000, 28.0
14.18000, 23.0
14.20000, 24.0
14.22000, 24.0
14.24000, 29.0
14.26000, 20.0
14.28000, 23.0
14.30000, 22.0
14.32000, 20.0
14.34000, 23.0
14.36000, 17.0
14.38000, 16.0
14.40000, 15.0
14.42000, 15.0
14.44000, 15.0
14.46000, 21.0
14.48000, 20.0
14.50000, 18.0
14.52000, 21.0
14.54000, 24.0
14.56000, 22.0
14.58000, 24.0
14.60000, 24.0
14.62000, 10.0
14.64000, 16.0
14.66000, 11.0
14.68000, 22.0
14.70000, 16.0
14.72000, 19.0
14.74000, 17.0
14.76000, 14.0
14.78000, 12.0
14.80000, 15.0
14.82000, 19.0
14.84000, 14.0
14.86000, 19.0
14.88000, 15.0
14.90000, 13.0
14.92000, 9.0
14.94000, 13.0
14.96000, 13.0
14.98000, 13.0
15.00000, 18.0
15.02000, 14.0
15.04000, 15.0
15.06000, 13.0
15.08000, 19.0
15.10000, 18.0
15.12000, 13.0
15.14000, 16.0
15.16000, 14.0
15.18000, 9.0
15.20000, 12.0
15.22000, 13.0
15.24000, 13.0
15.26000, 7.0
15.28000, 17.0
15.30000, 10.0
15.32000, 12.0
15.34000, 12.0
15.36000, 12.0
15.38000, 10.0
15.40000, 9.0
15.42000, 9.0
15.44000, 11.0
15.46000, 12.0
15.48000, 17.0
15.50000, 16.0
15.52000, 16.0
15.54000, 13.0
15.56000, 8.0
15.58000, 14.0
15.60000, 12.0
15.62000, 9.0
15.64000, 12.0
15.66000, 12.0
15.68000, 7.0
15.70000, 10.0
15.72000, 6.0
15.74000, 8.0
15.76000, 11.0
15.78000, 12.0
15.80000, 9.0
15.82000, 11.0
15.84000, 10.0
15.86000, 16.0
15.88000, 9.0
15.90000, 11.0
15.92000, 11.0
15.94000, 12.0
15.96000, 9.0
15.98000, 10.0
16.00000, 10.0
16.02000, 12.0
16.04000, 11.0
16.06000, 10.0
16.08000, 8.0
16.10000, 10.0
16.12000, 10.0
16.14000, 12.0
16.16000, 9.0
16.18000, 11.0
16.20000, 8.0
16.22000, 10.0
16.24000, 9.0
16.26000, 5.0
16.28000, 13.0
16.30000, 7.0
16.32000, 10.0
16.34000, 4.0
16.36000, 9.0
16.38000, 8.0
16.40000, 8.0
16.42000, 7.0
16.44000, 8.0
16.46000, 4.0
16.48000, 11.0
16.50000, 8.0
16.52000, 7.0
16.54000, 11.0
16.56000, 4.0
16.58000, 13.0
16.60000, 7.0
16.62000, 7.0
16.64000, 9.0
16.66000, 10.0
16.68000, 7.0
16.70000, 9.0
16.72000, 6.0
16.74000, 6.0
16.76000, 2.0
16.78000, 9.0
16.80000, 7.0
16.82000, 6.0
16.84000, 8.0
16.86000, 7.0
16.88000, 4.0
16.90000, 7.0
16.92000, 7.0
16.94000, 5.0
16.96000, 3.0
16.98000, 5.0
17.00000, 6.0
17.02000, 7.0
17.04000, 10.0
17.06000, 4.0
17.08000, 5.0
17.10000, 3.0
17.12000, 6.0
17.14000, 10.0
17.16000, 5.0
17.18000, 3.0
17.20000, 10.0
17.22000, 7.0
17.24000, 6.0
17.26000, 6.0
17.28000, 3.0
17.30000, 5.0
17.32000, 6.0
17.34000, 3.0
17.36000, 6.0
17.38000, 5.0
17.40000, 4.0
17.42000, 4.0
17.44000, 6.0
17.46000, 5.0
17.48000, 8.0
17.50000, 5.0
17.52000, 8.0
17.54000, 6.0
17.56000, 4.0
17.58000, 3.0
17.60000, 2.0
17.62000, 2.0
17.64000, 7.0
17.66000, 4.0
17.68000, 7.0
17.70000, 4.0
17.72000, 6.0
17.74000, 3.0
17.76000, 2.0
17.78000, 2.0
17.80000, 2.0
17.82000, 3.0
17.84000, 4.0
17.86000, 2.0
17.88000, 3.0
17.90000, 5.0
17.92000, 4.0
17.94000, 3.0
17.96000, 3.0
17.98000, 2.0
18.00000, 3.0
18.02000, 2.0
18.04000, 3.0
18.06000, 6.0
18.08000, 5.0
18.10000, 3.0
18.12000, 6.0
18.14000, 3.0
18.16000, 3.0
18.18000, 5.0
18.20000, 2.0
18.22000, 4.0
18.24000, 2.0
18.26000, 3.0
18.28000, 3.0
18.30000, 4.0
18.32000, 1.0
18.34000, 1.0
18.36000, 4.0
18.38000, 2.0
18.40000, 1.0
18.42000, 4.0
18.44000, 5.0
18.46000, 1.0
18.48000, 3.0
18.50000, 0.0
18.52000, 3.0
18.54000, 1.0
18.56000, 1.0
18.58000, 2.0
18.60000, 1.0
18.62000, 0.0
18.64000, 1.0
18.66000, 3.0
18.68000, 3.0
18.70000, 3.0
18.72000, 0.0
18.74000, 0.0
18.76000, 1.0
18.78000, 3.0
18.80000, 1.0
18.82000, 3.0
18.84000, 0.0
18.86000, 2.0
18.88000, 3.0
18.90000, 0.0
18.92000, 2.0
18.94000, 1.0
18.96000, 1.0
18.98000, 1.0
19.00000, 2.0
19.02000, 1.0
19.04000, 1.0
19.06000, 1.0
19.08000, 2.0
19.10000, 1.0
19.12000, 1.0
19.14000, 1.0
19.16000, 1.0
19.18000, 0.0
19.20000, 2.0
19.22000, 0.0
19.24000, 3.0
19.26000, 0.0
19.28000, 2.0
19.30000, 2.0
19.32000, 2.0
19.34000, 2.0
19.36000, 1.0
19.38000, 1.0
19.40000, 2.0
19.42000, 1.0
19.44000, 0.0
19.46000, 0.0
19.48000, 1.0
19.50000, 2.0
19.52000, 0.0
19.54000, 0.0
19.56000, 0.0
19.58000, 1.0
19.60000, 0.0
19.62000, 1.0
19.64000, 0.0
19.66000, 0.0
19.68000, 0.0
19.70000, 0.0
19.72000, 0.0
19.74000, 0.0
19.76000, 0.0
19.78000, 0.0
19.80000, 1.0
19.82000, 0.0
19.84000, 0.0
19.86000, 0.0
19.88000, 0.0
19.90000, 0.0
19.92000, 0.0
19.94000, 0.0
19.96000, 0.0
19.98000, 0.0
20.00000, 0.0
20.02000, 0.0
20.04000, 0.0
20.06000, 0.0
20.08000, 1.0
20.10000, 0.0
20.12000, 0.0
20.14000, 0.0
20.16000, 0.0
20.18000, 0.0
20.20000, 0.0
20.22000, 0.0
20.24000, 0.0
20.26000, 0.0
20.27000, 0.0
#ENDOFDATA   :