File: src/zuy/data/5.msa
#FORMAT      : EMSA/MAS Spectral Data File
#VERSION     : 1.0
#TITLE       : 5
#DATE        : 02-FEB-2022
#TIME        : 16:14
#OWNER       :
#NPOINTS     : 2048.0
#NCOLUMNS    : 1.0
#XUNITS      : keV
#YUNITS      : counts
#DATATYPE    : XY
#XPERCHAN    : 0.01
#OFFSET      : -0.2
#SIGNALTYPE  : EDS_SEM
#CHOFFSET    : 20.0
#LIVETIME    : 19.9998
#REALTIME    : 24.582
#BEAMKV      : 20.0
#PROBECUR    : 1.210256
#MAGCAM      : 299.0
#XTILTSTGE   : 0.0
#AZIMANGLE   : 0.0
#ELEVANGLE   : 35.0
#XPOSITION mm: -10.3467
#YPOSITION mm: -9.5703
#ZPOSITION mm: 12.0498
##OXINSTPT   : 5
##OXINSTSTROB: 38.17
##OXINSTNDET : 1
##OXINSTELEMS: 6,8,13,14,16,19,20,30,56,38
##OXINSTLABEL: 6, 0.277, C K?1,2
##OXINSTLABEL: 8, 0.525, O K?1
##OXINSTLABEL: 13, 1.487, Al K?1
##OXINSTLABEL: 14, 1.740, Si K?1
##OXINSTLABEL: 16, 2.308, S K?1
##OXINSTLABEL: 16, 2.464, S K?1
##OXINSTLABEL: 19, 3.314, K K?1
##OXINSTLABEL: 19, 3.590, K K?1
##OXINSTLABEL: 19, 0.260, K Ll
##OXINSTLABEL: 20, 0.303, Ca Ll
##OXINSTLABEL: 20, 3.692, Ca K?1
##OXINSTLABEL: 20, 4.013, Ca K?1
##OXINSTLABEL: 20, 0.345, Ca L?1
##OXINSTLABEL: 30, 8.639, Zn K?1
##OXINSTLABEL: 30, 9.572, Zn K?1
##OXINSTLABEL: 30, 1.012, Zn L?1,2
##OXINSTLABEL: 30, 0.906, Zn L?
##OXINSTLABEL: 30, 0.884, Zn Ll
##OXINSTLABEL: 56, 4.466, Ba L?1
##OXINSTLABEL: 56, 4.828, Ba L?1
##OXINSTLABEL: 56, 5.157, Ba L?2,15
##OXINSTLABEL: 56, 4.331, Ba L?
##OXINSTLABEL: 56, 5.531, Ba L?1
##OXINSTLABEL: 56, 5.797, Ba L?2
##OXINSTLABEL: 56, 3.954, Ba Ll
##OXINSTLABEL: 56, 0.780, Ba M?
##OXINSTLABEL: 56, 0.601, Ba M?
##OXINSTLABEL: 56, 0.075, Ba N5-O3
##OXINSTLABEL: 38, 14.165, Sr K?1
##OXINSTLABEL: 38, 15.836, Sr K?1
##OXINSTLABEL: 38, 16.085, Sr K?2
##OXINSTLABEL: 38, 1.807, Sr L?1
##OXINSTLABEL: 38, 1.649, Sr L?
##OXINSTLABEL: 38, 1.582, Sr Ll
##OXINSTLABEL: 38, 0.114, Sr M?
#SPECTRUM    : Spectral Data Starts Here
-0.20000, 0.0
-0.18000, 0.0
-0.16000, 0.0
-0.14000, 0.0
-0.12000, 0.0
-0.10000, 0.0
-0.08000, 0.0
-0.06000, 0.0
-0.04000, 15.0
-0.02000, 189.0
0.00000, 593.0
0.02000, 747.0
0.04000, 929.0
0.06000, 581.0
0.08000, 204.0
0.10000, 147.0
0.12000, 195.0
0.14000, 291.0
0.16000, 289.0
0.18000, 245.0
0.20000, 336.0
0.22000, 964.0
0.24000, 2687.0
0.26000, 4788.0
0.28000, 4103.0
0.30000, 1639.0
0.32000, 376.0
0.34000, 178.0
0.36000, 155.0
0.38000, 161.0
0.40000, 223.0
0.42000, 267.0
0.44000, 439.0
0.46000, 984.0
0.48000, 2597.0
0.50000, 5870.0
0.52000, 7947.0
0.54000, 5985.0
0.56000, 2528.0
0.58000, 909.0
0.60000, 546.0
0.62000, 388.0
0.64000, 301.0
0.66000, 276.0
0.68000, 248.0
0.70000, 281.0
0.72000, 333.0
0.74000, 426.0
0.76000, 471.0
0.78000, 536.0
0.80000, 525.0
0.82000, 435.0
0.84000, 396.0
0.86000, 406.0
0.88000, 504.0
0.90000, 528.0
0.92000, 468.0
0.94000, 546.0
0.96000, 867.0
0.98000, 1750.0
1.00000, 2937.0
1.02000, 3566.0
1.04000, 2858.0
1.06000, 1647.0
1.08000, 824.0
1.10000, 525.0
1.12000, 393.0
1.14000, 372.0
1.16000, 342.0
1.18000, 339.0
1.20000, 323.0
1.22000, 399.0
1.24000, 386.0
1.26000, 411.0
1.28000, 417.0
1.30000, 377.0
1.32000, 383.0
1.34000, 383.0
1.36000, 386.0
1.38000, 395.0
1.40000, 433.0
1.42000, 518.0
1.44000, 854.0
1.46000, 1378.0
1.48000, 1885.0
1.50000, 1843.0
1.52000, 1395.0
1.54000, 846.0
1.56000, 565.0
1.58000, 475.0
1.60000, 444.0
1.62000, 468.0
1.64000, 437.0
1.66000, 462.0
1.68000, 746.0
1.70000, 1309.0
1.72000, 2141.0
1.74000, 2723.0
1.76000, 2375.0
1.78000, 1713.0
1.80000, 1199.0
1.82000, 873.0
1.84000, 730.0
1.86000, 568.0
1.88000, 529.0
1.90000, 475.0
1.92000, 482.0
1.94000, 442.0
1.96000, 469.0
1.98000, 485.0
2.00000, 404.0
2.02000, 425.0
2.04000, 434.0
2.06000, 433.0
2.08000, 421.0
2.10000, 446.0
2.12000, 419.0
2.14000, 467.0
2.16000, 507.0
2.18000, 611.0
2.20000, 797.0
2.22000, 1135.0
2.24000, 1757.0
2.26000, 3314.0
2.28000, 5726.0
2.30000, 7654.0
2.32000, 7871.0
2.34000, 6121.0
2.36000, 3725.0
2.38000, 1775.0
2.40000, 984.0
2.42000, 778.0
2.44000, 851.0
2.46000, 891.0
2.48000, 843.0
2.50000, 747.0
2.52000, 586.0
2.54000, 486.0
2.56000, 431.0
2.58000, 379.0
2.60000, 415.0
2.62000, 431.0
2.64000, 409.0
2.66000, 442.0
2.68000, 399.0
2.70000, 381.0
2.72000, 397.0
2.74000, 368.0
2.76000, 380.0
2.78000, 391.0
2.80000, 356.0
2.82000, 358.0
2.84000, 381.0
2.86000, 373.0
2.88000, 366.0
2.90000, 332.0
2.92000, 338.0
2.94000, 364.0
2.96000, 354.0
2.98000, 318.0
3.00000, 347.0
3.02000, 358.0
3.04000, 356.0
3.06000, 362.0
3.08000, 338.0
3.10000, 380.0
3.12000, 341.0
3.14000, 367.0
3.16000, 349.0
3.18000, 368.0
3.20000, 399.0
3.22000, 389.0
3.24000, 378.0
3.26000, 432.0
3.28000, 508.0
3.30000, 525.0
3.32000, 537.0
3.34000, 530.0
3.36000, 493.0
3.38000, 443.0
3.40000, 369.0
3.42000, 353.0
3.44000, 329.0
3.46000, 353.0
3.48000, 315.0
3.50000, 352.0
3.52000, 351.0
3.54000, 382.0
3.56000, 415.0
3.58000, 458.0
3.60000, 665.0
3.62000, 991.0
3.64000, 1575.0
3.66000, 2288.0
3.68000, 2972.0
3.70000, 3002.0
3.72000, 2739.0
3.74000, 2019.0
3.76000, 1251.0
3.78000, 772.0
3.80000, 496.0
3.82000, 368.0
3.84000, 368.0
3.86000, 339.0
3.88000, 353.0
3.90000, 403.0
3.92000, 470.0
3.94000, 551.0
3.96000, 589.0
3.98000, 659.0
4.00000, 723.0
4.02000, 701.0
4.04000, 660.0
4.06000, 546.0
4.08000, 436.0
4.10000, 389.0
4.12000, 321.0
4.14000, 316.0
4.16000, 304.0
4.18000, 298.0
4.20000, 309.0
4.22000, 297.0
4.24000, 318.0
4.26000, 303.0
4.28000, 318.0
4.30000, 372.0
4.32000, 386.0
4.34000, 472.0
4.36000, 611.0
4.38000, 995.0
4.40000, 1562.0
4.42000, 2463.0
4.44000, 3245.0
4.46000, 3885.0
4.48000, 4000.0
4.50000, 3277.0
4.52000, 2464.0
4.54000, 1529.0
4.56000, 950.0
4.58000, 579.0
4.60000, 397.0
4.62000, 330.0
4.64000, 276.0
4.66000, 297.0
4.68000, 284.0
4.70000, 342.0
4.72000, 407.0
4.74000, 517.0
4.76000, 836.0
4.78000, 1144.0
4.80000, 1555.0
4.82000, 1980.0
4.84000, 1966.0
4.86000, 1889.0
4.88000, 1568.0
4.90000, 1229.0
4.92000, 971.0
4.94000, 758.0
4.96000, 638.0
4.98000, 495.0
5.00000, 374.0
5.02000, 352.0
5.04000, 308.0
5.06000, 358.0
5.08000, 410.0
5.10000, 510.0
5.12000, 651.0
5.14000, 785.0
5.16000, 809.0
5.18000, 828.0
5.20000, 696.0
5.22000, 554.0
5.24000, 382.0
5.26000, 314.0
5.28000, 260.0
5.30000, 231.0
5.32000, 199.0
5.34000, 226.0
5.36000, 199.0
5.38000, 228.0
5.40000, 230.0
5.42000, 245.0
5.44000, 250.0
5.46000, 304.0
5.48000, 337.0
5.50000, 407.0
5.52000, 420.0
5.54000, 418.0
5.56000, 401.0
5.58000, 352.0
5.60000, 330.0
5.62000, 249.0
5.64000, 212.0
5.66000, 202.0
5.68000, 195.0
5.70000, 195.0
5.72000, 222.0
5.74000, 229.0
5.76000, 283.0
5.78000, 248.0
5.80000, 270.0
5.82000, 265.0
5.84000, 259.0
5.86000, 226.0
5.88000, 218.0
5.90000, 221.0
5.92000, 181.0
5.94000, 196.0
5.96000, 202.0
5.98000, 207.0
6.00000, 211.0
6.02000, 189.0
6.04000, 199.0
6.06000, 185.0
6.08000, 185.0
6.10000, 185.0
6.12000, 166.0
6.14000, 177.0
6.16000, 161.0
6.18000, 163.0
6.20000, 158.0
6.22000, 164.0
6.24000, 182.0
6.26000, 161.0
6.28000, 165.0
6.30000, 179.0
6.32000, 175.0
6.34000, 189.0
6.36000, 191.0
6.38000, 192.0
6.40000, 198.0
6.42000, 191.0
6.44000, 182.0
6.46000, 194.0
6.48000, 171.0
6.50000, 158.0
6.52000, 173.0
6.54000, 157.0
6.56000, 153.0
6.58000, 155.0
6.60000, 158.0
6.62000, 136.0
6.64000, 142.0
6.66000, 160.0
6.68000, 174.0
6.70000, 170.0
6.72000, 130.0
6.74000, 164.0
6.76000, 160.0
6.78000, 143.0
6.80000, 158.0
6.82000, 147.0
6.84000, 157.0
6.86000, 136.0
6.88000, 141.0
6.90000, 147.0
6.92000, 143.0
6.94000, 130.0
6.96000, 146.0
6.98000, 139.0
7.00000, 140.0
7.02000, 156.0
7.04000, 146.0
7.06000, 137.0
7.08000, 144.0
7.10000, 147.0
7.12000, 161.0
7.14000, 139.0
7.16000, 150.0
7.18000, 146.0
7.20000, 171.0
7.22000, 118.0
7.24000, 136.0
7.26000, 155.0
7.28000, 166.0
7.30000, 136.0
7.32000, 117.0
7.34000, 137.0
7.36000, 133.0
7.38000, 113.0
7.40000, 138.0
7.42000, 119.0
7.44000, 129.0
7.46000, 122.0
7.48000, 127.0
7.50000, 141.0
7.52000, 136.0
7.54000, 143.0
7.56000, 139.0
7.58000, 132.0
7.60000, 105.0
7.62000, 151.0
7.64000, 113.0
7.66000, 147.0
7.68000, 121.0
7.70000, 126.0
7.72000, 131.0
7.74000, 142.0
7.76000, 118.0
7.78000, 134.0
7.80000, 120.0
7.82000, 116.0
7.84000, 142.0
7.86000, 121.0
7.88000, 115.0
7.90000, 130.0
7.92000, 136.0
7.94000, 127.0
7.96000, 104.0
7.98000, 115.0
8.00000, 136.0
8.02000, 114.0
8.04000, 120.0
8.06000, 119.0
8.08000, 122.0
8.10000, 115.0
8.12000, 125.0
8.14000, 110.0
8.16000, 142.0
8.18000, 122.0
8.20000, 136.0
8.22000, 107.0
8.24000, 128.0
8.26000, 128.0
8.28000, 128.0
8.30000, 103.0
8.32000, 114.0
8.34000, 127.0
8.36000, 116.0
8.38000, 114.0
8.40000, 105.0
8.42000, 109.0
8.44000, 127.0
8.46000, 158.0
8.48000, 172.0
8.50000, 229.0
8.52000, 296.0
8.54000, 417.0
8.56000, 575.0
8.58000, 700.0
8.60000, 848.0
8.62000, 920.0
8.64000, 908.0
8.66000, 838.0
8.68000, 674.0
8.70000, 523.0
8.72000, 376.0
8.74000, 283.0
8.76000, 213.0
8.78000, 151.0
8.80000, 139.0
8.82000, 123.0
8.84000, 96.0
8.86000, 112.0
8.88000, 94.0
8.90000, 119.0
8.92000, 105.0
8.94000, 113.0
8.96000, 104.0
8.98000, 113.0
9.00000, 104.0
9.02000, 89.0
9.04000, 97.0
9.06000, 112.0
9.08000, 98.0
9.10000, 91.0
9.12000, 101.0
9.14000, 96.0
9.16000, 113.0
9.18000, 98.0
9.20000, 83.0
9.22000, 83.0
9.24000, 116.0
9.26000, 102.0
9.28000, 88.0
9.30000, 85.0
9.32000, 99.0
9.34000, 112.0
9.36000, 105.0
9.38000, 103.0
9.40000, 86.0
9.42000, 103.0
9.44000, 113.0
9.46000, 122.0
9.48000, 132.0
9.50000, 175.0
9.52000, 172.0
9.54000, 178.0
9.56000, 198.0
9.58000, 214.0
9.60000, 182.0
9.62000, 179.0
9.64000, 129.0
9.66000, 123.0
9.68000, 124.0
9.70000, 115.0
9.72000, 93.0
9.74000, 99.0
9.76000, 82.0
9.78000, 86.0
9.80000, 75.0
9.82000, 76.0
9.84000, 79.0
9.86000, 101.0
9.88000, 71.0
9.90000, 71.0
9.92000, 72.0
9.94000, 80.0
9.96000, 66.0
9.98000, 88.0
10.00000, 78.0
10.02000, 82.0
10.04000, 78.0
10.06000, 76.0
10.08000, 72.0
10.10000, 88.0
10.12000, 85.0
10.14000, 67.0
10.16000, 62.0
10.18000, 91.0
10.20000, 80.0
10.22000, 77.0
10.24000, 75.0
10.26000, 73.0
10.28000, 85.0
10.30000, 73.0
10.32000, 80.0
10.34000, 76.0
10.36000, 88.0
10.38000, 84.0
10.40000, 69.0
10.42000, 71.0
10.44000, 73.0
10.46000, 71.0
10.48000, 73.0
10.50000, 62.0
10.52000, 71.0
10.54000, 67.0
10.56000, 66.0
10.58000, 71.0
10.60000, 68.0
10.62000, 61.0
10.64000, 63.0
10.66000, 65.0
10.68000, 80.0
10.70000, 71.0
10.72000, 53.0
10.74000, 59.0
10.76000, 67.0
10.78000, 71.0
10.80000, 71.0
10.82000, 61.0
10.84000, 72.0
10.86000, 66.0
10.88000, 76.0
10.90000, 66.0
10.92000, 63.0
10.94000, 51.0
10.96000, 63.0
10.98000, 68.0
11.00000, 65.0
11.02000, 70.0
11.04000, 53.0
11.06000, 71.0
11.08000, 63.0
11.10000, 59.0
11.12000, 58.0
11.14000, 68.0
11.16000, 49.0
11.18000, 57.0
11.20000, 55.0
11.22000, 51.0
11.24000, 58.0
11.26000, 59.0
11.28000, 52.0
11.30000, 48.0
11.32000, 58.0
11.34000, 57.0
11.36000, 57.0
11.38000, 61.0
11.40000, 55.0
11.42000, 51.0
11.44000, 53.0
11.46000, 51.0
11.48000, 54.0
11.50000, 55.0
11.52000, 54.0
11.54000, 51.0
11.56000, 64.0
11.58000, 63.0
11.60000, 51.0
11.62000, 52.0
11.64000, 60.0
11.66000, 52.0
11.68000, 55.0
11.70000, 56.0
11.72000, 63.0
11.74000, 44.0
11.76000, 48.0
11.78000, 51.0
11.80000, 44.0
11.82000, 62.0
11.84000, 59.0
11.86000, 40.0
11.88000, 46.0
11.90000, 54.0
11.92000, 58.0
11.94000, 47.0
11.96000, 50.0
11.98000, 54.0
12.00000, 64.0
12.02000, 41.0
12.04000, 46.0
12.06000, 42.0
12.08000, 44.0
12.10000, 44.0
12.12000, 44.0
12.14000, 41.0
12.16000, 58.0
12.18000, 54.0
12.20000, 50.0
12.22000, 45.0
12.24000, 44.0
12.26000, 39.0
12.28000, 30.0
12.30000, 42.0
12.32000, 39.0
12.34000, 67.0
12.36000, 39.0
12.38000, 34.0
12.40000, 43.0
12.42000, 41.0
12.44000, 56.0
12.46000, 52.0
12.48000, 47.0
12.50000, 55.0
12.52000, 48.0
12.54000, 39.0
12.56000, 42.0
12.58000, 49.0
12.60000, 38.0
12.62000, 45.0
12.64000, 46.0
12.66000, 39.0
12.68000, 38.0
12.70000, 43.0
12.72000, 38.0
12.74000, 47.0
12.76000, 42.0
12.78000, 39.0
12.80000, 52.0
12.82000, 36.0
12.84000, 40.0
12.86000, 33.0
12.88000, 47.0
12.90000, 42.0
12.92000, 50.0
12.94000, 29.0
12.96000, 39.0
12.98000, 40.0
13.00000, 47.0
13.02000, 45.0
13.04000, 37.0
13.06000, 42.0
13.08000, 42.0
13.10000, 47.0
13.12000, 23.0
13.14000, 31.0
13.16000, 40.0
13.18000, 36.0
13.20000, 35.0
13.22000, 26.0
13.24000, 30.0
13.26000, 36.0
13.28000, 39.0
13.30000, 54.0
13.32000, 35.0
13.34000, 41.0
13.36000, 31.0
13.38000, 37.0
13.40000, 37.0
13.42000, 38.0
13.44000, 33.0
13.46000, 38.0
13.48000, 36.0
13.50000, 31.0
13.52000, 29.0
13.54000, 31.0
13.56000, 35.0
13.58000, 31.0
13.60000, 28.0
13.62000, 42.0
13.64000, 33.0
13.66000, 36.0
13.68000, 35.0
13.70000, 20.0
13.72000, 25.0
13.74000, 36.0
13.76000, 28.0
13.78000, 27.0
13.80000, 26.0
13.82000, 33.0
13.84000, 27.0
13.86000, 44.0
13.88000, 30.0
13.90000, 31.0
13.92000, 24.0
13.94000, 30.0
13.96000, 27.0
13.98000, 30.0
14.00000, 31.0
14.02000, 28.0
14.04000, 30.0
14.06000, 35.0
14.08000, 28.0
14.10000, 32.0
14.12000, 25.0
14.14000, 38.0
14.16000, 23.0
14.18000, 31.0
14.20000, 28.0
14.22000, 28.0
14.24000, 27.0
14.26000, 21.0
14.28000, 30.0
14.30000, 36.0
14.32000, 27.0
14.34000, 27.0
14.36000, 24.0
14.38000, 22.0
14.40000, 31.0
14.42000, 20.0
14.44000, 21.0
14.46000, 18.0
14.48000, 21.0
14.50000, 30.0
14.52000, 24.0
14.54000, 25.0
14.56000, 20.0
14.58000, 17.0
14.60000, 18.0
14.62000, 26.0
14.64000, 22.0
14.66000, 24.0
14.68000, 24.0
14.70000, 26.0
14.72000, 15.0
14.74000, 26.0
14.76000, 28.0
14.78000, 16.0
14.80000, 23.0
14.82000, 15.0
14.84000, 16.0
14.86000, 20.0
14.88000, 14.0
14.90000, 23.0
14.92000, 22.0
14.94000, 28.0
14.96000, 19.0
14.98000, 21.0
15.00000, 21.0
15.02000, 23.0
15.04000, 17.0
15.06000, 20.0
15.08000, 14.0
15.10000, 20.0
15.12000, 15.0
15.14000, 17.0
15.16000, 14.0
15.18000, 15.0
15.20000, 19.0
15.22000, 20.0
15.24000, 12.0
15.26000, 17.0
15.28000, 14.0
15.30000, 14.0
15.32000, 23.0
15.34000, 13.0
15.36000, 17.0
15.38000, 26.0
15.40000, 17.0
15.42000, 17.0
15.44000, 12.0
15.46000, 19.0
15.48000, 13.0
15.50000, 14.0
15.52000, 9.0
15.54000, 12.0
15.56000, 8.0
15.58000, 19.0
15.60000, 13.0
15.62000, 13.0
15.64000, 12.0
15.66000, 24.0
15.68000, 13.0
15.70000, 11.0
15.72000, 13.0
15.74000, 13.0
15.76000, 14.0
15.78000, 22.0
15.80000, 16.0
15.82000, 11.0
15.84000, 12.0
15.86000, 11.0
15.88000, 15.0
15.90000, 11.0
15.92000, 15.0
15.94000, 13.0
15.96000, 10.0
15.98000, 13.0
16.00000, 13.0
16.02000, 10.0
16.04000, 14.0
16.06000, 11.0
16.08000, 12.0
16.10000, 12.0
16.12000, 11.0
16.14000, 16.0
16.16000, 11.0
16.18000, 10.0
16.20000, 12.0
16.22000, 10.0
16.24000, 12.0
16.26000, 11.0
16.28000, 12.0
16.30000, 10.0
16.32000, 11.0
16.34000, 9.0
16.36000, 10.0
16.38000, 11.0
16.40000, 12.0
16.42000, 11.0
16.44000, 8.0
16.46000, 9.0
16.48000, 11.0
16.50000, 10.0
16.52000, 7.0
16.54000, 8.0
16.56000, 15.0
16.58000, 12.0
16.60000, 11.0
16.62000, 7.0
16.64000, 10.0
16.66000, 12.0
16.68000, 7.0
16.70000, 10.0
16.72000, 9.0
16.74000, 8.0
16.76000, 12.0
16.78000, 8.0
16.80000, 8.0
16.82000, 10.0
16.84000, 11.0
16.86000, 8.0
16.88000, 14.0
16.90000, 11.0
16.92000, 11.0
16.94000, 11.0
16.96000, 10.0
16.98000, 8.0
17.00000, 7.0
17.02000, 5.0
17.04000, 6.0
17.06000, 7.0
17.08000, 4.0
17.10000, 8.0
17.12000, 5.0
17.14000, 8.0
17.16000, 7.0
17.18000, 9.0
17.20000, 10.0
17.22000, 8.0
17.24000, 6.0
17.26000, 4.0
17.28000, 4.0
17.30000, 7.0
17.32000, 5.0
17.34000, 6.0
17.36000, 3.0
17.38000, 5.0
17.40000, 6.0
17.42000, 8.0
17.44000, 7.0
17.46000, 8.0
17.48000, 6.0
17.50000, 9.0
17.52000, 10.0
17.54000, 5.0
17.56000, 6.0
17.58000, 5.0
17.60000, 6.0
17.62000, 7.0
17.64000, 4.0
17.66000, 6.0
17.68000, 4.0
17.70000, 3.0
17.72000, 6.0
17.74000, 4.0
17.76000, 5.0
17.78000, 3.0
17.80000, 5.0
17.82000, 4.0
17.84000, 6.0
17.86000, 2.0
17.88000, 1.0
17.90000, 3.0
17.92000, 3.0
17.94000, 5.0
17.96000, 2.0
17.98000, 4.0
18.00000, 5.0
18.02000, 5.0
18.04000, 11.0
18.06000, 6.0
18.08000, 6.0
18.10000, 4.0
18.12000, 3.0
18.14000, 2.0
18.16000, 4.0
18.18000, 4.0
18.20000, 3.0
18.22000, 7.0
18.24000, 4.0
18.26000, 3.0
18.28000, 3.0
18.30000, 6.0
18.32000, 6.0
18.34000, 1.0
18.36000, 5.0
18.38000, 5.0
18.40000, 4.0
18.42000, 3.0
18.44000, 3.0
18.46000, 3.0
18.48000, 1.0
18.50000, 4.0
18.52000, 7.0
18.54000, 3.0
18.56000, 2.0
18.58000, 3.0
18.60000, 3.0
18.62000, 1.0
18.64000, 3.0
18.66000, 3.0
18.68000, 1.0
18.70000, 3.0
18.72000, 2.0
18.74000, 1.0
18.76000, 1.0
18.78000, 1.0
18.80000, 1.0
18.82000, 2.0
18.84000, 4.0
18.86000, 1.0
18.88000, 3.0
18.90000, 1.0
18.92000, 0.0
18.94000, 1.0
18.96000, 3.0
18.98000, 1.0
19.00000, 1.0
19.02000, 1.0
19.04000, 2.0
19.06000, 2.0
19.08000, 4.0
19.10000, 3.0
19.12000, 1.0
19.14000, 1.0
19.16000, 1.0
19.18000, 1.0
19.20000, 2.0
19.22000, 1.0
19.24000, 1.0
19.26000, 2.0
19.28000, 1.0
19.30000, 0.0
19.32000, 1.0
19.34000, 1.0
19.36000, 2.0
19.38000, 0.0
19.40000, 1.0
19.42000, 1.0
19.44000, 1.0
19.46000, 1.0
19.48000, 0.0
19.50000, 2.0
19.52000, 1.0
19.54000, 0.0
19.56000, 0.0
19.58000, 0.0
19.60000, 2.0
19.62000, 0.0
19.64000, 1.0
19.66000, 1.0
19.68000, 1.0
19.70000, 0.0
19.72000, 0.0
19.74000, 0.0
19.76000, 0.0
19.78000, 0.0
19.80000, 0.0
19.82000, 0.0
19.84000, 0.0
19.86000, 0.0
19.88000, 1.0
19.90000, 0.0
19.92000, 0.0
19.94000, 0.0
19.96000, 1.0
19.98000, 0.0
20.00000, 1.0
20.02000, 0.0
20.04000, 0.0
20.06000, 0.0
20.08000, 0.0
20.10000, 0.0
20.12000, 1.0
20.14000, 1.0
20.16000, 0.0
20.18000, 0.0
20.20000, 0.0
20.22000, 0.0
20.24000, 0.0
20.26000, 0.0
20.27000, 0.0
#ENDOFDATA   :